Folder: jrcai-github-competition-amao

Note: README.md
# jrcai-github-competition-amao
Plotting publication grade XRD dataset - JRCAI

File: SM_0_xrd_clean.csv
"2Theta","J_0_AD_","J_0_GL_","J_0_HT_"
4.00337,467,484,565
4.13467,450,445,508
4.26597,500,434,509
4.39727,476,463,528
4.52858,474,472,492
4.65988,497,463,512
4.79118,523,462,460
4.92248,544,530,470
5.05379,595,518,464
5.18509,567,511,457
5.31639,617,529,427
5.4477,569,535,471
5.579,628,537,440
5.7103,635,622,448
5.8416,622,565,462
5.97291,635,620,441
6.10421,687,624,463
6.23551,718,662,453
6.36682,749,721,454
6.49812,803,740,413
6.62942,857,715,405
6.76072,874,685,418
6.89203,919,762,410
7.02333,947,701,429
7.15463,953,692,401
7.28594,1028,673,427
7.41724,1078,673,427
7.54854,1018,698,432
7.67984,1041,661,449
7.81115,1106,629,417
7.94245,1044,709,407
8.07375,1043,654,434
8.20506,1070,640,414
8.33636,994,664,446
8.46766,939,709,467
8.59896,916,707,512
8.73027,833,725,494
8.86157,778,720,452
8.99287,657,638,396
9.12418,593,657,416
9.25548,594,696,388
9.38678,549,687,339
9.51808,500,686,371
9.64939,479,638,372
9.78069,432,602,343
9.91199,467,597,357
10.0433,437,569,362
10.1746,395,540,341
10.3059,365,521,328
10.4372,466,546,341
10.5685,451,510,312
10.6998,406,545,295
10.8311,438,527,338
10.9624,382,519,352
11.0937,403,532,352
11.225,430,514,345
11.3563,528,524,321
11.4876,840,532,328
11.6189,549,555,309
11.7502,431,498,337
11.8815,471,523,335
12.0128,701,678,386
12.1441,1788,1299,320
12.2754,12282,7112,325
12.4067,891,804,291
12.538,432,551,344
12.6694,391,516,321
12.8007,353,554,322
12.932,315,497,314
13.0633,381,470,356
13.1946,463,528,333
13.3259,339,547,340
13.4572,332,509,288
13.5885,336,496,269
13.7198,302,483,311
13.8511,327,487,277
13.9824,298,507,298
14.1137,308,488,301
14.245,270,502,326
14.3763,278,514,301
14.5076,291,522,291
14.6389,312,592,287
14.7702,310,514,342
14.9015,318,519,291
15.0328,267,516,302
15.1641,278,454,286
15.2954,294,522,308
15.4267,270,507,297
15.558,272,482,285
15.6893,268,529,303
15.8206,239,534,296
15.9519,263,537,289
16.0832,300,484,313
16.2145,276,531,272
16.3458,292,550,323
16.4771,300,526,314
16.6084,301,561,287
16.7397,301,563,293
16.871,282,606,327
17.0023,334,581,324
17.1336,341,595,353
17.265,339,620,374
17.3963,377,613,405
17.5276,391,586,491
17.6589,389,567,439
17.7902,360,614,405
17.9215,335,619,370
18.0528,285,574,365
18.1841,293,589,323
18.3154,266,592,307
18.4467,273,583,287
18.578,245,655,261
18.7093,232,635,310
18.8406,243,651,284
18.9719,220,666,238
19.1032,229,616,267
19.2345,219,696,266
19.3658,214,690,295
19.4971,243,749,349
19.6284,277,751,296
19.7597,455,827,278
19.891,265,746,291
20.0223,246,756,294
20.1536,345,789,271
20.2849,621,1076,288
20.4162,322,771,261
20.5475,272,822,295
20.6788,409,818,288
20.8101,379,932,260
20.9414,388,878,282
21.0727,326,905,285
21.204,442,950,242
21.3353,308,813,249
21.4666,345,904,260
21.5979,216,812,240
21.7292,217,832,249
21.8605,204,828,247
21.9919,197,842,268
22.1232,206,811,239
22.2545,231,816,250
22.3858,242,870,246
22.5171,241,905,237
22.6484,209,765,243
22.7797,212,814,271
22.911,348,943,273
23.0423,380,868,259
23.1736,237,805,288
23.3049,350,823,274
23.4362,272,839,230
23.5675,274,753,221
23.6988,317,783,239
23.8301,226,733,263
23.9614,175,698,246
24.0927,220,716,240
24.224,226,696,201
24.3553,225,653,256
24.4866,259,714,261
24.6179,386,794,307
24.7492,2454,2081,227
24.8805,3010,2462,242
25.0118,376,747,322
25.1431,282,681,441
25.2744,282,660,278
25.4057,225,667,272
25.537,232,621,257
25.6683,247,650,240
25.7996,248,567,263
25.9309,264,612,269
26.0622,223,602,294
26.1935,288,648,403
26.3248,431,750,502
26.4561,637,890,620
26.5875,749,1058,697
26.7188,1021,1364,602
26.8501,585,858,529
26.9814,475,730,420
27.1127,414,607,435
27.244,372,560,451
27.3753,479,673,367
27.5066,488,651,295
27.6379,424,544,270
27.7692,300,486,246
27.9005,278,434,225
28.0318,247,478,217
28.1631,257,485,241
28.2944,261,462,220
28.4257,240,421,190
28.557,221,460,242
28.6883,235,487,174
28.8196,208,440,196
28.9509,264,408,204
29.0822,288,443,164
29.2135,205,417,208
29.3448,219,414,210
29.4761,192,503,178
29.6074,196,499,195
29.7387,241,428,190
29.87,186,410,198
30.0013,176,392,168
30.1326,143,367,168
30.2639,163,395,177
30.3952,153,348,180
30.5265,166,399,156
30.6578,172,385,177
30.7891,159,396,164
30.9204,178,341,166
31.0517,156,338,161
31.1831,148,349,168
31.3144,139,349,160
31.4457,142,343,185
31.577,135,340,169
31.7083,138,361,160
31.8396,134,391,129
31.9709,165,333,138
32.1022,156,349,163
32.2335,144,368,144
32.3648,152,353,128
32.4961,160,332,132
32.6274,123,319,118
32.7587,137,312,146
32.89,144,285,136
33.0213,121,317,148
33.1526,148,330,140
33.2839,149,310,141
33.4152,138,311,144
33.5465,142,302,141
33.6778,110,304,137
33.8091,124,295,140
33.9404,139,263,147
34.0717,121,298,115
34.203,136,305,123
34.3343,141,328,140
34.4656,160,293,134
34.5969,174,315,169
34.7282,158,334,175
34.8595,223,387,153
34.9908,161,316,152
35.1221,160,316,153
35.2534,153,318,175
35.3847,246,360,153
35.516,190,359,147
35.6473,155,348,130
35.7786,138,333,119
35.91,194,356,118
36.0413,189,332,120
36.1726,109,296,111
36.3039,130,256,98
36.4352,131,295,112
36.5665,140,286,113
36.6978,133,263,104
36.8291,116,238,104
36.9604,125,295,120
37.0917,114,270,94
37.223,100,292,114
37.3543,138,263,91
37.4856,145,279,124
37.6169,711,725,108
37.7482,376,410,122
37.8795,107,275,96
38.0108,127,247,80
38.1421,122,227,88
38.2734,211,371,89
38.4047,202,341,101
38.536,161,301,95
38.6673,133,268,106
38.7986,116,239,93
38.9299,110,222,93
39.0612,118,278,94
39.1925,211,366,88
39.3238,148,282,81
39.4551,92,236,85
39.5864,97,248,79
39.7177,115,271,111
39.849,91,237,92
39.9803,92,239,104
39.9935,93,213,102